Code	Codelist Code	Codelist Extensible (Yes/No)	Codelist Name	CDISC Submission Value	CDISC Synonym(s)	CDISC Definition	NCI Preferred Term
C3		No	Derivation Type	DTYPE	Derivation Type	Derivation Type: Analysis value derivation method.	CDISC ADaM Derivation Type Terminology